E(MeV)	B10 Tot			
1.00000E-11	193344			
1.10304E-11	184092			
1.21669E-11	175283			
1.34205E-11	166896			
1.48034E-11	158910			
1.63287E-11	151306			
1.80111E-11	144066			
1.98669E-11	137172			
2.19139E-11	130608			
2.41719E-11	124358			
2.66625E-11	118408			
2.94097E-11	112742			
3.24400E-11	107347			
3.57825E-11	102210			
3.94694E-11	97319.6			
4.35362E-11	92662.8			
4.80221E-11	88228.8			
5.29701E-11	84007			
5.84280E-11	79987.2			
6.44483E-11	76159.7			
7.10888E-11	72515.4			
7.84136E-11	69045.5			
8.64931E-11	65741.6			
9.54051E-11	62595.9			
1.05235E-10	59600.6			
1.16078E-10	56748.7			
1.28039E-10	54033.2			
1.41232E-10	51447.7			
1.55784E-10	48985.9			
1.71835E-10	46641.9			
1.89540E-10	44410.1			
2.09070E-10	42285			
2.10545E-10	42146.5			
2.30612E-10	40261.7			
2.33866E-10	39997.9			
2.54374E-10	38335.2			
2.59782E-10	37956.6			
2.80583E-10	36500.8			
2.88556E-10	36019.1			
3.09494E-10	34754.2			
3.20534E-10	34178.5			
3.41383E-10	33091.2			
3.56037E-10	32431.6			
3.76558E-10	31507.8			
3.95492E-10	30772.1			
4.15358E-10	30000.2			
4.39298E-10	29197.2			
4.58155E-10	28564.7			
4.87980E-10	27701.1			
5.05362E-10	27197.9			
5.42031E-10	26281.4			
5.57433E-10	25896.5			
6.02097E-10	24932.9			
6.14869E-10	24657.3			
6.68788E-10	23653.2			
6.78223E-10	23477.5			
7.42901E-10	22437.8			
7.48105E-10	22354.1			
8.25188E-10	21284.5			
9.10213E-10	20266			
9.16633E-10	20199.7			
1.00400E-09	19296.3			
1.01816E-09	19169.9			
1.10745E-09	18373			
1.13892E-09	18130.6			
1.22156E-09	17493.9			
1.27399E-09	17145.2			
1.34742E-09	16656.9			
1.42508E-09	16211			
1.48625E-09	15859.9			
1.59410E-09	15325.5			
1.63939E-09	15101			
1.78315E-09	14486.1			
1.80831E-09	14378.5			
1.99463E-09	13690.5			
2.00870E-09	13645.7			
2.20015E-09	13035.5			
2.26267E-09	12863.5			
2.42685E-09	12411.8			
2.54888E-09	12122			
2.67691E-09	11817.9			
2.89140E-09	11378.2			
2.95273E-09	11252.5			
3.25697E-09	10714.1			
3.27994E-09	10679			
3.59256E-09	10201.5			
3.74677E-09	9998.19			
3.96272E-09	9713.44			
4.28024E-09	9352.05			
4.37103E-09	9248.72			
4.82141E-09	8806.24			
4.92392E-09	8719.3			
5.31819E-09	8384.93			
5.70408E-09	8102.44			
5.86616E-09	7983.79			
6.47059E-09	7601.83			
6.65446E-09	7501.54			
7.13730E-09	7238.16			
7.81795E-09	6917.68			
7.87271E-09	6891.89			
8.68389E-09	6562.19			
9.31399E-09	6341.12			
9.57865E-09	6248.27			
1.05656E-08	5949.37			
1.12534E-08	5769.55			
1.16543E-08	5664.77			
1.28551E-08	5393.79			
1.37878E-08	5212.08			
1.41796E-08	5135.76			
1.56406E-08	4890.09			
1.72522E-08	4656.17			
1.90298E-08	4433.43			
2.09906E-08	4221.35			
2.20460E-08	4122.8			
2.31534E-08	4019.41			
2.52419E-08	3849.59			
2.53000E-08	3845.16			
2.79068E-08	3661.22			
3.07823E-08	3486.07			
3.39540E-08	3319.29			
3.74525E-08	3160.49			
4.13115E-08	3009.29			
4.55681E-08	2865.33			
4.78593E-08	2798.43			
5.02633E-08	2728.25			
5.54423E-08	2597.75			
6.11549E-08	2473.5			
6.74561E-08	2355.21			
7.33714E-08	2259.38			
7.44066E-08	2242.61			
8.20732E-08	2135.44			
9.05297E-08	2033.44			
9.98577E-08	1936.35			
1.10147E-07	1843.91			
1.21496E-07	1755.88			
1.26711E-07	1720.94			
1.34014E-07	1672.02			
1.47823E-07	1592.11			
1.63054E-07	1515.98			
1.79855E-07	1443.48			
1.98386E-07	1374.46			
2.18827E-07	1308.78			
2.41375E-07	1246.25			
2.66245E-07	1186.71			
2.70002E-07	1178.95			
2.93678E-07	1130.01			
3.23938E-07	1075.98			
3.57316E-07	1024.53			
3.94132E-07	975.564			
4.34743E-07	928.986			
4.79537E-07	884.637			
5.28947E-07	842.403			
5.83448E-07	802.212			
6.43565E-07	763.881			
7.09876E-07	727.348			
7.83020E-07	692.621			
8.63700E-07	659.585			
9.26369E-07	637.445			
9.52693E-07	628.146			
1.05086E-06	598.154			
1.15913E-06	569.681			
1.27857E-06	542.636			
1.28758E-06	540.594			
1.41030E-06	516.68			
1.42025E-06	514.741			
1.55562E-06	492.053			
1.56659E-06	490.214			
1.71590E-06	468.602			
1.72801E-06	466.85			
1.89271E-06	446.328			
1.90606E-06	444.665			
2.10245E-06	423.411			
2.31908E-06	403.324			
2.55803E-06	384.209			
2.57595E-06	382.776			
2.82161E-06	365.84			
2.84137E-06	364.478			
3.11233E-06	348.443			
3.13414E-06	347.153			
3.43302E-06	331.859			
3.45707E-06	330.628			
3.78675E-06	316.143			
3.81327E-06	314.978			
3.84017E-06	313.946			
4.20618E-06	299.902			
4.23585E-06	298.936			
4.63957E-06	285.801			
4.67230E-06	284.736			
5.11762E-06	272.282			
5.18982E-06	270.263			
5.64492E-06	259.225			
5.68474E-06	258.259			
5.76495E-06	256.593			
6.22656E-06	247			
6.31441E-06	245.175			
6.40349E-06	243.581			
6.86813E-06	235.265			
6.96502E-06	233.53			
7.01416E-06	232.773			
7.57580E-06	224.12			
7.68268E-06	222.473			
7.79107E-06	221.025			
8.47428E-06	211.899			
8.59383E-06	210.523			
9.34744E-06	201.85			
9.41338E-06	201.197			
1.02389E-05	193.022			
1.03833E-05	191.592			
1.12147E-05	184.521			
1.13729E-05	183.175			
1.16148E-05	181.376			
1.22842E-05	176.396			
1.25448E-05	174.457			
1.28115E-05	172.746			
1.30833E-05	171.003			
1.34550E-05	168.619			
1.37411E-05	166.784			
1.41316E-05	164.584			
1.44313E-05	162.896			
1.47382E-05	161.168			
1.49461E-05	159.996			
1.56968E-05	156.27			
1.58075E-05	155.721			
1.61429E-05	154.056			
1.63706E-05	152.926			
1.71937E-05	149.354			
1.73142E-05	148.832			
1.75584E-05	147.772			
1.78062E-05	146.697			
1.87015E-05	143.274			
1.88325E-05	142.773			
1.92329E-05	141.242			
1.93676E-05	140.727			
2.03414E-05	137.455			
2.07729E-05	136.005			
2.09195E-05	135.513			
2.12146E-05	134.521			
2.19702E-05	132.316			
2.25945E-05	130.494			
2.30749E-05	129.093			
2.34005E-05	128.244			
2.42340E-05	126.07			
2.45759E-05	125.179			
2.50984E-05	123.817			
2.65450E-05	120.524			
2.67310E-05	120.101			
2.72993E-05	118.807			
2.86706E-05	116.028			
2.90751E-05	115.208			
2.94853E-05	114.376			
3.14047E-05	110.943			
3.16247E-05	110.549			
3.22971E-05	109.346			
3.41586E-05	106.455			
3.43979E-05	106.084			
3.53753E-05	104.566			
3.71541E-05	102.139			
3.74143E-05	101.784			
3.84775E-05	100.333			
4.04122E-05	98.0169			
4.06952E-05	97.678			
4.12694E-05	96.9907			
4.21468E-05	95.9402			
4.27415E-05	95.3168			
4.36481E-05	94.3665			
4.45761E-05	93.3937			
4.52050E-05	92.7345			
4.55217E-05	92.4025			
4.84851E-05	89.6369			
4.88247E-05	89.3199			
4.98628E-05	88.3511			
5.27368E-05	86.0176			
5.31062E-05	85.7176			
5.34808E-05	85.4135			
5.42353E-05	84.8008			
5.65634E-05	83.1287			
5.77632E-05	82.2669			
5.81706E-05	81.9742			
5.89913E-05	81.3847			
6.23915E-05	79.2371			
6.28285E-05	78.9611			
6.46138E-05	77.8335			
6.83380E-05	75.7919			
7.07757E-05	74.4557			
7.38137E-05	72.9922			
7.43307E-05	72.7431			
7.69821E-05	71.4658			
8.02865E-05	70.0676			
8.08489E-05	69.8297			
8.19895E-05	69.347			
8.37328E-05	68.6094			
8.67153E-05	67.5068			
8.85590E-05	66.8251			
8.91793E-05	66.5958			
9.30073E-05	65.1806			
9.63249E-05	64.1276			
9.69996E-05	63.9134			
1.01877E-04	62.3654			
1.04038E-04	61.7685			
1.05506E-04	61.3632			
1.06994E-04	60.9521			
1.12374E-04	59.4663			
1.15567E-04	58.7076			
1.24821E-04	56.5092			
1.25701E-04	56.3294			
1.35767E-04	54.2743			
1.36724E-04	54.0998			
1.46645E-04	52.2931			
1.47672E-04	52.1283			
1.48714E-04	51.9612			
1.57286E-04	50.5861			
1.59505E-04	50.2308			
1.61755E-04	49.8704			
1.62888E-04	49.689			
1.64037E-04	49.532			
1.72276E-04	48.4058			
1.75939E-04	47.9051			
1.77172E-04	47.7515			
1.88706E-04	46.3143			
1.90027E-04	46.1496			
1.91368E-04	46.0036			
1.94068E-04	45.7094			
2.09607E-04	44.0163			
2.11086E-04	43.8765			
2.12564E-04	43.7368			
2.26402E-04	42.4291			
2.27988E-04	42.2945			
2.31204E-04	42.0217			
2.44531E-04	40.8914			
2.46256E-04	40.7624			
2.49730E-04	40.5027			
2.65974E-04	39.2883			
2.73532E-04	38.791			
2.93379E-04	37.485			
2.95449E-04	37.3682			
2.97518E-04	37.2515			
3.23608E-04	35.7799			
3.28174E-04	35.5566			
3.51986E-04	34.3919			
3.54469E-04	34.2704			
3.56952E-04	34.149			
3.82852E-04	33.0462			
3.88253E-04	32.8383			
4.16425E-04	31.7541			
4.22300E-04	31.5566			
4.25279E-04	31.4564			
4.56137E-04	30.4191			
4.62572E-04	30.2312			
4.99611E-04	29.1499			
5.03136E-04	29.047			
5.43423E-04	28.0393			
5.47257E-04	27.9434			
5.58865E-04	27.653			
5.78799E-04	27.22			
5.86965E-04	27.0428			
5.91077E-04	26.9536			
6.07872E-04	26.589			
6.12160E-04	26.5073			
6.47444E-04	25.8347			
6.51980E-04	25.7482			
6.61178E-04	25.5729			
6.99287E-04	24.9388			
7.09153E-04	24.7747			
7.34448E-04	24.3539			
7.55318E-04	24.0562			
7.76780E-04	23.75			
8.10123E-04	23.2744			
8.38979E-04	22.9175			
8.44898E-04	22.8442			
8.87337E-04	22.3193			
9.06203E-04	22.1153			
9.25425E-04	21.9076			
9.50000E-04	21.642			
9.71957E-04	21.405			
9.92574E-04	21.2112			
9.99575E-04	21.1453			
1.00000E-03	21.1413			
1.00658E-03	21.0795			
1.04248E-03	20.7418			
1.04978E-03	20.6786			
1.09485E-03	20.2887			
1.12596E-03	20.0195			
1.18257E-03	19.5964			
1.22469E-03	19.2816			
1.25073E-03	19.0871			
1.28627E-03	18.8572			
1.35088E-03	18.4393			
1.36041E-03	18.3841			
1.41881E-03	18.0459			
1.45912E-03	17.8124			
1.46934E-03	17.7601			
1.55403E-03	17.33			
1.58707E-03	17.1622			
1.62074E-03	16.9923			
1.69031E-03	16.6876			
1.71416E-03	16.5832			
1.72625E-03	16.5307			
1.73834E-03	16.4782			
1.83853E-03	16.0802			
1.89075E-03	15.8728			
1.93098E-03	15.735			
1.98585E-03	15.5469			
2.08557E-03	15.2052			
2.10028E-03	15.1548			
2.17512E-03	14.9329			
2.26183E-03	14.6757			
2.26846E-03	14.6561			
2.33292E-03	14.4846			
2.36586E-03	14.3969			
2.44998E-03	14.1731			
2.50000E-03	14.0552			
2.53527E-03	13.9722			
2.58150E-03	13.8634			
2.62033E-03	13.772			
2.66283E-03	13.672			
2.82755E-03	13.3299			
2.85596E-03	13.2709			
2.87605E-03	13.2292			
3.09232E-03	12.8288			
3.09719E-03	12.8197			
3.10140E-03	12.812			
3.36879E-03	12.3711			
3.38535E-03	12.3438			
3.58227E-03	12.0614			
3.68849E-03	11.909			
3.68987E-03	11.9072			
3.98402E-03	11.5347			
3.98984E-03	11.5273			
4.01779E-03	11.4959			
4.14268E-03	11.3555			
4.35193E-03	11.1203			
4.35344E-03	11.1186			
4.44600E-03	11.0285			
4.74675E-03	10.7357			
4.79827E-03	10.6855			
4.90109E-03	10.599			
5.04512E-03	10.4778			
5.16300E-03	10.3787			
5.29267E-03	10.2696			
5.56496E-03	10.0721			
5.65509E-03	10.0067			
5.81547E-03	9.89042			
5.88015E-03	9.84972			
6.19438E-03	9.65199			
6.31278E-03	9.57749			
6.36668E-03	9.54357			
6.73758E-03	9.337			
6.74758E-03	9.33144			
6.83179E-03	9.28454			
6.87998E-03	9.26106			
7.38629E-03	9.01442			
7.50875E-03	8.95476			
7.60581E-03	8.90771			
7.70127E-03	8.86809			
7.96804E-03	8.75737			
8.35437E-03	8.59702			
8.61992E-03	8.50164			
8.70387E-03	8.47149			
9.03525E-03	8.35247			
9.15108E-03	8.31087			
9.49350E-03	8.20337			
9.56701E-03	8.18029			
9.95355E-03	8.05895			
1.03260E-02	7.95673			
1.05145E-02	7.90498			
1.07982E-02	7.82711			
1.13326E-02	7.69758			
1.13978E-02	7.6818			
1.17452E-02	7.5976			
1.23693E-02	7.46508			
1.24134E-02	7.45572			
1.28123E-02	7.37103			
1.28514E-02	7.36272			
1.35019E-02	7.24249			
1.39783E-02	7.15445			
1.40770E-02	7.13838			
1.43167E-02	7.09963			
1.46358E-02	7.04806			
1.47726E-02	7.02596			
1.51058E-02	6.97211			
1.52041E-02	6.95622			
1.59361E-02	6.8548			
1.65707E-02	6.76688			
1.67707E-02	6.73917			
1.68890E-02	6.72293			
1.70157E-02	6.70782			
1.74077E-02	6.66155			
1.81234E-02	6.57708			
1.82176E-02	6.56597			
1.87058E-02	6.51419			
1.89870E-02	6.48466			
1.95680E-02	6.42366			
1.96154E-02	6.41868			
2.01411E-02	6.37002			
2.02822E-02	6.35696			
2.06065E-02	6.32721			
2.13355E-02	6.26034			
2.22180E-02	6.18927			
2.26653E-02	6.15359			
2.32541E-02	6.10661			
2.35618E-02	6.0853			
2.41645E-02	6.04354			
2.43386E-02	6.03148			
2.48268E-02	5.99804			
2.52036E-02	5.97222			
2.68345E-02	5.87434			
2.69032E-02	5.87026			
2.69903E-02	5.86508			
2.72131E-02	5.85184			
2.91766E-02	5.74713			
2.94689E-02	5.73368			
2.97941E-02	5.71871			
3.00000E-02	5.70939			
3.08051E-02	5.67295			
3.18722E-02	5.62464			
3.20049E-02	5.61863			
3.36689E-02	5.55447			
3.40314E-02	5.54065			
3.48155E-02	5.51117			
3.49733E-02	5.50524			
3.69763E-02	5.44086			
3.73789E-02	5.42792			
3.79740E-02	5.409			
3.83195E-02	5.39802			
3.84599E-02	5.39356			
4.12130E-02	5.31981			
4.18120E-02	5.30376			
4.21276E-02	5.2954			
4.40384E-02	5.2523			
4.50000E-02	5.23061			
4.53174E-02	5.22345			
4.53306E-02	5.22316			
4.56349E-02	5.21641			
4.96535E-02	5.144			
5.04512E-02	5.12963			
5.08071E-02	5.12444			
5.10000E-02	5.12167			
5.38065E-02	5.08135			
5.53880E-02	5.05862			
5.57759E-02	5.05316			
5.90903E-02	5.01771			
6.10626E-02	4.99662			
6.37443E-02	4.97351			
6.41127E-02	4.97033			
6.59170E-02	4.95526			
6.96309E-02	4.93261			
7.33852E-02	4.90973			
7.44205E-02	4.9054			
7.54160E-02	4.90145			
7.60581E-02	4.89891			
8.15176E-02	4.87727			
8.24260E-02	4.8751			
8.55996E-02	4.86752			
8.61992E-02	4.86619			
8.68073E-02	4.86484			
9.06612E-02	4.86094			
9.63403E-02	4.85518			
9.70199E-02	4.85549			
9.87741E-02	4.85648			
9.99117E-02	4.85712			
1.00000E-01	4.85717			
1.01411E-01	4.85796			
1.02126E-01	4.85843			
1.07613E-01	4.86646			
1.09440E-01	4.86914			
1.09536E-01	4.86928			
1.18181E-01	4.877			
1.20823E-01	4.87936			
1.21669E-01	4.88162			
1.27489E-01	4.89712			
1.32338E-01	4.91004			
1.39262E-01	4.9257			
1.50000E-01	4.94999			
1.50832E-01	4.95195			
1.52116E-01	4.95497			
1.55351E-01	4.9649			
1.64852E-01	4.98773			
1.73615E-01	5.00878			
1.81067E-01	5.02669			
1.81322E-01	5.02731			
1.85078E-01	5.03635			
1.90000E-01	5.04389			
1.97548E-01	5.05546			
2.00000E-01	5.05922			
2.04252E-01	5.06573			
2.05683E-01	5.06787			
2.15226E-01	5.07435			
2.15967E-01	5.07485			
2.23104E-01	5.07969			
2.24678E-01	5.08071			
2.30000E-01	5.07942			
2.36361E-01	5.07758			
2.36658E-01	5.0775			
2.43386E-01	5.07556			
2.51764E-01	5.06433			
2.51890E-01	5.06416			
2.54977E-01	5.06081			
2.55315E-01	5.06044			
2.63668E-01	5.0512			
2.65528E-01	5.04718			
2.78524E-01	5.02188			
2.80000E-01	5.01901			
2.81975E-01	5.01516			
2.83950E-01	5.01199			
2.85953E-01	5.00679			
3.00000E-01	4.97062			
3.01664E-01	4.96736			
3.02116E-01	4.96648			
3.04232E-01	4.96233			
3.20000E-01	4.91965			
3.22257E-01	4.91116			
3.29704E-01	4.88776			
3.36593E-01	4.86611			
3.40000E-01	4.85555			
3.42398E-01	4.84918			
3.52469E-01	4.82302			
3.54938E-01	4.81748			
3.59945E-01	4.80195			
3.62485E-01	4.79432			
3.62645E-01	4.79389			
3.65079E-01	4.78736			
3.75000E-01	4.76075			
3.77500E-01	4.75429			
3.82681E-01	4.7434			
3.88079E-01	4.73232			
3.90798E-01	4.72674			
3.95096E-01	4.71616			
4.00000E-01	4.70409			
4.25925E-01	4.65339			
4.30452E-01	4.64454			
4.46208E-01	4.61373			
4.53174E-01	4.59957			
4.60000E-01	4.58398			
4.62787E-01	4.5759			
4.70481E-01	4.54982			
4.75000E-01	4.5345			
4.77500E-01	4.5257			
4.80000E-01	4.51584			
4.83386E-01	4.50174			
4.93639E-01	4.45725			
5.00000E-01	4.42495			
5.20000E-01	4.30944			
5.23668E-01	4.28762			
5.43809E-01	4.16529			
5.60000E-01	4.0663			
5.78042E-01	3.95896			
5.80000E-01	3.94742			
5.96481E-01	3.85405			
6.00000E-01	3.83411			
6.21280E-01	3.72368			
6.50000E-01	3.58177			
6.68470E-01	3.50087			
6.77901E-01	3.45956			
7.00000E-01	3.36808			
7.24969E-01	3.27481			
7.40347E-01	3.21954			
7.50000E-01	3.18484			
7.90714E-01	3.05107			
7.96292E-01	3.03296			
8.00000E-01	3.02233			
8.05643E-01	3.00617			
8.20000E-01	2.9653			
8.25784E-01	2.94903			
8.45000E-01	2.89573			
8.51851E-01	2.87715			
8.61992E-01	2.84966			
8.72133E-01	2.8223			
8.80000E-01	2.80298			
9.00000E-01	2.75483			
9.32980E-01	2.67746			
9.40000E-01	2.66236			
9.56701E-01	2.62713			
9.66772E-01	2.60602			
9.93826E-01	2.54999			
9.99831E-01	2.53772			
9.99870E-01	2.53764			
9.99893E-01	2.53759			
9.99909E-01	2.53756			
9.99922E-01	2.53753			
9.99935E-01	2.5375			
9.99945E-01	2.53748			
9.99955E-01	2.53746			
9.99964E-01	2.53744			
9.99971E-01	2.53743			
9.99979E-01	2.53742			
9.99985E-01	2.5374			
9.99992E-01	2.53739			
9.99998E-01	2.53738			
1.00000E+00	2.53737			
1.00000E+00	2.53737			
1.00001E+00	2.53736			
1.00001E+00	2.53735			
1.00002E+00	2.53734			
1.00002E+00	2.53733			
1.00003E+00	2.53732			
1.00003E+00	2.53732			
1.00004E+00	2.53731			
1.00004E+00	2.5373			
1.00004E+00	2.5373			
1.00005E+00	2.53729			
1.00005E+00	2.53729			
1.00006E+00	2.53728			
1.00006E+00	2.53728			
1.00006E+00	2.53727			
1.00007E+00	2.53726			
1.00007E+00	2.53726			
1.00007E+00	2.53725			
1.00008E+00	2.53725			
1.00008E+00	2.53724			
1.00008E+00	2.53724			
1.00009E+00	2.53723			
1.00009E+00	2.53723			
1.00009E+00	2.53722			
1.00009E+00	2.53722			
1.00010E+00	2.53721			
1.00010E+00	2.53721			
1.00010E+00	2.53721			
1.00010E+00	2.5372			
1.00011E+00	2.5372			
1.00011E+00	2.53719			
1.00011E+00	2.53719			
1.00011E+00	2.53718			
1.00012E+00	2.53718			
1.00012E+00	2.53718			
1.00012E+00	2.53717			
1.00012E+00	2.53717			
1.00013E+00	2.53716			
1.00013E+00	2.53716			
1.00013E+00	2.53716			
1.00014E+00	2.53715			
1.00014E+00	2.53715			
1.00014E+00	2.53714			
1.00014E+00	2.53714			
1.00015E+00	2.53713			
1.00015E+00	2.53713			
1.00015E+00	2.53713			
1.00015E+00	2.53712			
1.00017E+00	2.5371			
1.00022E+00	2.53701			
1.00044E+00	2.53665			
1.00088E+00	2.53593			
1.01411E+00	2.51432			
1.05000E+00	2.45597			
1.09385E+00	2.38979			
1.10000E+00	2.3805			
1.10097E+00	2.37912			
1.12339E+00	2.3472			
1.15000E+00	2.30739			
1.19823E+00	2.23793			
1.20000E+00	2.23538			
1.20159E+00	2.23319			
1.21693E+00	2.21208			
1.25000E+00	2.16675			
1.26764E+00	2.14356			
1.30000E+00	2.10404			
1.35000E+00	2.04892			
1.40000E+00	2.01523			
1.40988E+00	2.00887			
1.45000E+00	1.98975			
1.50000E+00	1.96873			
1.55000E+00	1.97184			
1.60000E+00	2.03534			
1.62000E+00	2.06977			
1.63143E+00	2.08969			
1.65000E+00	2.12247			
1.66000E+00	2.13985			
1.68000E+00	2.17935			
1.70000E+00	2.22226			
1.72000E+00	2.26133			
1.74000E+00	2.29564			
1.75000E+00	2.3096			
1.76000E+00	2.31933			
1.78000E+00	2.32642			
1.80000E+00	2.31959			
1.82000E+00	2.30268			
1.83770E+00	2.28161			
1.85000E+00	2.26695			
1.90000E+00	2.19923			
1.91340E+00	2.17988			
1.91500E+00	2.17759			
1.91545E+00	2.17693			
1.93000E+00	2.15517			
1.94000E+00	2.14156			
1.95000E+00	2.12944			
1.96000E+00	2.11612			
1.96376E+00	2.11144			
1.98000E+00	2.0913			
2.00000E+00	2.06825			
2.01411E+00	2.05134			
2.04000E+00	2.02012			
2.05000E+00	2.00934			
2.10000E+00	1.95626			
2.10825E+00	1.94842			
2.12000E+00	1.93719			
2.15000E+00	1.91405			
2.17000E+00	1.90243			
2.18000E+00	1.89774			
2.20000E+00	1.89357			
2.22000E+00	1.89377			
2.24000E+00	1.9007			
2.25000E+00	1.90654			
2.30000E+00	1.94184			
2.35000E+00	1.97691			
2.36000E+00	1.98477			
2.36658E+00	1.98895			
2.37132E+00	1.992			
2.40000E+00	2.01098			
2.41693E+00	2.02393			
2.45000E+00	2.04944			
2.46000E+00	2.05931			
2.48000E+00	2.08584			
2.50000E+00	2.12007			
2.55000E+00	2.21469			
2.56000E+00	2.23383			
2.57104E+00	2.25756			
2.60000E+00	2.31998			
2.62000E+00	2.36297			
2.63668E+00	2.38978			
2.64000E+00	2.39513			
2.70000E+00	2.44902			
2.75000E+00	2.49468			
2.77000E+00	2.50851			
2.78000E+00	2.51692			
2.80000E+00	2.5152			
2.81975E+00	2.48791			
2.82000E+00	2.48757			
2.85000E+00	2.43191			
2.90000E+00	2.34789			
2.95000E+00	2.26559			
3.00000E+00	2.1847			
3.05000E+00	2.10779			
3.06379E+00	2.08716			
3.10000E+00	2.03296			
3.14000E+00	1.97332			
3.15000E+00	1.95993			
3.20000E+00	1.89586			
3.25000E+00	1.8406			
3.30000E+00	1.79304			
3.35000E+00	1.78908			
3.40000E+00	1.80645			
3.42188E+00	1.79813			
3.45414E+00	1.76893			
3.45828E+00	1.76634			
3.50000E+00	1.72027			
3.55000E+00	1.6872			
3.60000E+00	1.65858			
3.62539E+00	1.64752			
3.65000E+00	1.63691			
3.70000E+00	1.62494			
3.75000E+00	1.62333			
3.77867E+00	1.62965			
3.80000E+00	1.63435			
3.85216E+00	1.66417			
3.90000E+00	1.70242			
3.94845E+00	1.74138			
3.94923E+00	1.74204			
4.00000E+00	1.78319			
4.05000E+00	1.81833			
4.10000E+00	1.84006			
4.20000E+00	1.86705			
4.28930E+00	1.88521			
4.30000E+00	1.88739			
4.35000E+00	1.87795			
4.40000E+00	1.84851			
4.60000E+00	1.73372			
4.65000E+00	1.70345			
4.66490E+00	1.69296			
4.69780E+00	1.6698			
4.75000E+00	1.63312			
4.80000E+00	1.60601			
4.85000E+00	1.58474			
5.00000E+00	1.5343			
5.03527E+00	1.52285			
5.10000E+00	1.50194			
5.10631E+00	1.50024			
5.20000E+00	1.47507			
5.25491E+00	1.46261			
5.30000E+00	1.4558			
5.40000E+00	1.44718			
5.50000E+00	1.4529			
5.51481E+00	1.45449			
5.53880E+00	1.45708			
5.60000E+00	1.46481			
5.62509E+00	1.46956			
5.68409E+00	1.47888			
5.70000E+00	1.48141			
5.70181E+00	1.48204			
5.75913E+00	1.49064			
5.80000E+00	1.49679			
5.90000E+00	1.51385			
6.00000E+00	1.53019			
6.08465E+00	1.54613			
6.20000E+00	1.56768			
6.24374E+00	1.57068			
6.30958E+00	1.5753			
6.31125E+00	1.57542			
6.40000E+00	1.58166			
6.44515E+00	1.57344			
6.50000E+00	1.56363			
6.51581E+00	1.56429			
6.55275E+00	1.56782			
6.60000E+00	1.57234			
6.63194E+00	1.57012			
6.64521E+00	1.57399			
6.64656E+00	1.57438			
6.69311E+00	1.58805			
6.70000E+00	1.59007			
6.74443E+00	1.60127			
6.80000E+00	1.60519			
6.84797E+00	1.60418			
6.89594E+00	1.60321			
6.90000E+00	1.60314			
6.94867E+00	1.59641			
7.00000E+00	1.58848			
7.04938E+00	1.5859			
7.10000E+00	1.5833			
7.15500E+00	1.58056			
7.20000E+00	1.57973			
7.25079E+00	1.57799			
7.30000E+00	1.57635			
7.30158E+00	1.5763			
7.35149E+00	1.57515			
7.40000E+00	1.57308			
7.45220E+00	1.56943			
7.50000E+00	1.56613			
7.60000E+00	1.55937			
7.65361E+00	1.55501			
7.70500E+00	1.55104			
7.80000E+00	1.54345			
7.81596E+00	1.54217			
7.85502E+00	1.53877			
7.91004E+00	1.53401			
8.00000E+00	1.52634			
8.15714E+00	1.51636			
8.20000E+00	1.51313			
8.25600E+00	1.50954			
8.30000E+00	1.50684			
8.40000E+00	1.50096			
8.50000E+00	1.49525			
8.60000E+00	1.48986			
8.80000E+00	1.48122			
8.80600E+00	1.48095			
8.86208E+00	1.47905			
8.90000E+00	1.47778			
9.00000E+00	1.47597			
9.06349E+00	1.47369			
9.10000E+00	1.47243			
9.20000E+00	1.47238			
9.30000E+00	1.47052			
9.35600E+00	1.47037			
9.40000E+00	1.47016			
9.50000E+00	1.46945			
9.53262E+00	1.46931			
9.60000E+00	1.46906			
9.72113E+00	1.46933			
9.80000E+00	1.46951			
9.86913E+00	1.47061			
9.90000E+00	1.47111			
9.90700E+00	1.47105			
1.00000E+01	1.47131			
1.01000E+01	1.47275			
1.04000E+01	1.47803			
1.04570E+01	1.47931			
1.05000E+01	1.48023			
1.06000E+01	1.48235			
1.07232E+01	1.4843			
1.09012E+01	1.48715			
1.10000E+01	1.48848			
1.10070E+01	1.48856			
1.10776E+01	1.48838			
1.11000E+01	1.48831			
1.12000E+01	1.48774			
1.15000E+01	1.48696			
1.15580E+01	1.48632			
1.16000E+01	1.48588			
1.17000E+01	1.48489			
1.17445E+01	1.48495			
1.20000E+01	1.4854			
1.21000E+01	1.48511			
1.21080E+01	1.48506			
1.22000E+01	1.48449			
1.23000E+01	1.4838			
1.25000E+01	1.48255			
1.26000E+01	1.48228			
1.26580E+01	1.48203			
1.27000E+01	1.48182			
1.28000E+01	1.48132			
1.30000E+01	1.48125			
1.31834E+01	1.479			
1.32000E+01	1.47879			
1.32090E+01	1.47866			
1.33000E+01	1.47713			
1.34000E+01	1.4754			
1.34477E+01	1.47456			
1.35000E+01	1.47385			
1.37000E+01	1.47162			
1.37590E+01	1.47091			
1.38000E+01	1.4705			
1.38836E+01	1.46984			
1.39000E+01	1.46971			
1.40000E+01	1.46895			
1.40988E+01	1.46827			
1.43000E+01	1.46691			
1.43100E+01	1.46683			
1.44000E+01	1.46623			
1.45000E+01	1.46547			
1.46143E+01	1.4647			
1.48000E+01	1.46389			
1.48600E+01	1.46352			
1.49000E+01	1.46334			
1.50000E+01	1.46288			
1.52116E+01	1.46185			
1.54000E+01	1.46092			
1.54100E+01	1.46086			
1.55000E+01	1.4605			
1.56000E+01	1.46022			
1.56093E+01	1.46017			
1.57187E+01	1.45972			
1.59000E+01	1.45895			
1.59610E+01	1.45856			
1.60000E+01	1.4584			
1.61000E+01	1.45782			
1.62257E+01	1.457			
1.64286E+01	1.45579			
1.65000E+01	1.45512			
1.65110E+01	1.45501			
1.66000E+01	1.45424			
1.67000E+01	1.45333			
1.68508E+01	1.45178			
1.70000E+01	1.45026			
1.70610E+01	1.44963			
1.71000E+01	1.44925			
1.72000E+01	1.44833			
1.73615E+01	1.44675			
1.75000E+01	1.44539			
1.76000E+01	1.44439			
1.76120E+01	1.44426			
1.76234E+01	1.44416			
1.77000E+01	1.44348			
1.78000E+01	1.44261			
1.80000E+01	1.44088			
1.81000E+01	1.43992			
1.81620E+01	1.4394			
1.82000E+01	1.4391			
1.83000E+01	1.4382			
1.84000E+01	1.43737			
1.85000E+01	1.43654			
1.87000E+01	1.43496			
1.87130E+01	1.43485			
1.88000E+01	1.43419			
1.89000E+01	1.4334			
1.90000E+01	1.43266			
1.92000E+01	1.43129			
1.92630E+01	1.43089			
1.93000E+01	1.43069			
1.93805E+01	1.43027			
1.94000E+01	1.43015			
1.95000E+01	1.42957			
1.96376E+01	1.42882			
1.98000E+01	1.42799			
1.98130E+01	1.42792			
1.99000E+01	1.42758			
2.00000E+01	1.4271