E(MeV)	C-nat			
1.00000E-11	78.2393			
1.10304E-11	74.5075			
1.21669E-11	70.9548			
1.34205E-11	67.5728			
1.48034E-11	64.3533			
1.63287E-11	61.2885			
1.80111E-11	58.3711			
1.98669E-11	55.5941			
2.19139E-11	52.9507			
2.41719E-11	50.4347			
2.66625E-11	48.04			
2.94097E-11	45.7608			
3.24400E-11	43.5916			
3.57825E-11	41.5272			
3.94694E-11	39.5628			
4.35362E-11	37.6934			
4.80221E-11	35.9147			
5.29701E-11	34.2223			
5.84280E-11	32.6122			
6.44483E-11	31.0805			
7.10888E-11	29.6236			
7.84136E-11	28.2378			
8.64931E-11	26.92			
9.54051E-11	25.6668			
1.05235E-10	24.4754			
1.16078E-10	23.3427			
1.28039E-10	22.2662			
1.41232E-10	21.2431			
1.55784E-10	20.2711			
1.71835E-10	19.3527			
1.73047E-10	19.2834			
1.89540E-10	18.4796			
1.92214E-10	18.3493			
2.09070E-10	17.6497			
2.13515E-10	17.4653			
2.30612E-10	16.8613			
2.37165E-10	16.6298			
2.54374E-10	16.1124			
2.63447E-10	15.8397			
2.80583E-10	15.4015			
2.92627E-10	15.0935			
3.09494E-10	14.7268			
3.25056E-10	14.3885			
3.41383E-10	14.0868			
3.61060E-10	13.7233			
3.76558E-10	13.48			
4.01072E-10	13.0954			
4.15358E-10	12.905			
4.45496E-10	12.5036			
4.58155E-10	12.3605			
4.94865E-10	11.9457			
5.05362E-10	11.8452			
5.49678E-10	11.4207			
5.57433E-10	11.3578			
6.10592E-10	10.9265			
6.14869E-10	10.8971			
6.78223E-10	10.4622			
7.48105E-10	10.0565			
7.53382E-10	10.0259			
8.25188E-10	9.67378			
8.36830E-10	9.61672			
9.10213E-10	9.31486			
9.36077E-10	9.20852			
1.00400E-09	8.97576			
1.04709E-09	8.82815			
1.10745E-09	8.65611			
1.17128E-09	8.47424			
1.22156E-09	8.35521			
1.31019E-09	8.14548			
1.34742E-09	8.07241			
1.46558E-09	7.84062			
1.48625E-09	7.80724			
1.63939E-09	7.56014			
1.65096E-09	7.54149			
1.80831E-09	7.33432			
1.85969E-09	7.2667			
1.99463E-09	7.12208			
2.09493E-09	7.01465			
2.20015E-09	6.92365			
2.37644E-09	6.77128			
2.42685E-09	6.73642			
2.67691E-09	6.56357			
2.69579E-09	6.55053			
2.95273E-09	6.40982			
3.07947E-09	6.34045			
3.25697E-09	6.26418			
3.51794E-09	6.15211			
3.59256E-09	6.1272			
3.96272E-09	6.00371			
4.04698E-09	5.97562			
4.37103E-09	5.89302			
4.68819E-09	5.81223			
4.82141E-09	5.78672			
5.31819E-09	5.69168			
5.46931E-09	5.66278			
5.86616E-09	5.60672			
6.42558E-09	5.52775			
6.47059E-09	5.52316			
7.13730E-09	5.45531			
7.65518E-09	5.40265			
7.87271E-09	5.38717			
8.68389E-09	5.32949			
9.24920E-09	5.28932			
9.57865E-09	5.27342			
1.05656E-08	5.22584			
1.13322E-08	5.18892			
1.16543E-08	5.17875			
1.28551E-08	5.14091			
1.41796E-08	5.0992			
1.56406E-08	5.07055			
1.72522E-08	5.03898			
1.82466E-08	5.01952			
1.90298E-08	5.01054			
2.09906E-08	4.9881			
2.31534E-08	4.96337			
2.43176E-08	4.95008			
2.52419E-08	4.94243			
2.53000E-08	4.94196			
2.79068E-08	4.92714			
3.07823E-08	4.91082			
3.39540E-08	4.89284			
3.54114E-08	4.88459			
3.74525E-08	4.87904			
4.13115E-08	4.86857			
4.55681E-08	4.85705			
5.02633E-08	4.84437			
5.31604E-08	4.83655			
5.54423E-08	4.83404			
6.11549E-08	4.82777			
6.74561E-08	4.82088			
7.44066E-08	4.81329			
8.20732E-08	4.80494			
8.80284E-08	4.79847			
9.05297E-08	4.79761			
9.98577E-08	4.79445			
1.10147E-07	4.79097			
1.21496E-07	4.78714			
1.34014E-07	4.78294			
1.47823E-07	4.77831			
1.63054E-07	4.77323			
1.73669E-07	4.76969			
1.79855E-07	4.76929			
1.98386E-07	4.76813			
2.18827E-07	4.76685			
2.41375E-07	4.76546			
2.66245E-07	4.76392			
2.93678E-07	4.76224			
3.23938E-07	4.7604			
3.57316E-07	4.75837			
3.94132E-07	4.75615			
4.34743E-07	4.7537			
4.79537E-07	4.751			
4.89733E-07	4.75039			
5.28947E-07	4.75027			
5.83448E-07	4.75011			
6.43565E-07	4.74994			
7.09876E-07	4.74976			
7.83020E-07	4.74957			
8.63700E-07	4.74936			
9.52693E-07	4.74914			
1.05086E-06	4.74889			
1.15913E-06	4.74863			
1.27857E-06	4.74834			
1.41030E-06	4.74803			
1.56659E-06	4.74766			
1.72801E-06	4.74729			
1.90606E-06	4.74688			
2.10245E-06	4.74643			
2.31908E-06	4.74594			
2.57595E-06	4.74536			
2.84137E-06	4.74477			
3.13414E-06	4.74412			
3.45707E-06	4.7434			
3.81327E-06	4.74261			
4.23585E-06	4.74167			
4.67230E-06	4.74071			
4.73822E-06	4.74057			
5.15372E-06	4.74055			
5.64492E-06	4.74054			
6.22656E-06	4.74053			
6.82035E-06	4.74051			
7.52310E-06	4.7405			
8.35638E-06	4.74048			
9.15328E-06	4.74047			
1.00257E-05	4.74046			
1.09818E-05	4.74045			
1.20285E-05	4.74044			
1.30833E-05	4.74042			
1.48414E-05	4.74041			
1.67187E-05	4.74039			
1.83121E-05	4.74038			
1.99180E-05	4.74037			
2.16646E-05	4.74036			
2.34005E-05	4.74035			
2.58116E-05	4.74033			
2.82717E-05	4.74032			
3.03231E-05	4.74031			
3.34475E-05	4.74029			
3.63806E-05	4.74027			
3.92956E-05	4.74026			
4.30409E-05	4.74024			
4.71454E-05	4.74022			
5.12797E-05	4.74021			
5.57765E-05	4.74019			
6.19545E-05	4.74016			
6.78627E-05	4.74014			
7.48551E-05	4.74011			
8.31463E-05	4.74008			
9.04375E-05	4.74005			
9.76838E-05	4.74002			
1.06994E-04	4.73998			
1.15567E-04	4.73995			
1.28368E-04	4.7399			
1.38653E-04	4.73987			
1.49756E-04	4.73982			
1.66351E-04	4.73976			
1.80939E-04	4.73971			
1.95427E-04	4.73966			
2.12564E-04	4.7396			
2.31204E-04	4.73953			
2.56826E-04	4.73944			
2.75461E-04	4.73937			
2.99617E-04	4.73928			
3.32803E-04	4.73916			
3.59470E-04	4.73907			
3.90992E-04	4.73896			
4.28258E-04	4.73882			
4.69098E-04	4.73868			
5.03136E-04	4.73856			
5.74745E-04	4.73831			
6.38437E-04	4.73808			
7.19158E-04	4.7378			
8.10123E-04	4.73747			
8.87337E-04	4.7372			
9.78765E-04	4.73688			
1.07210E-03	4.73655			
1.19925E-03	4.7361			
1.30442E-03	4.73573			
1.43882E-03	4.73526			
1.62074E-03	4.73462			
1.77530E-03	4.73407			
1.97194E-03	4.73338			
2.02797E-03	4.73318			
2.32965E-03	4.73212			
2.58781E-03	4.73121			
2.90388E-03	4.7301			
3.28849E-03	4.72875			
3.67801E-03	4.72738			
4.11366E-03	4.72584			
4.59921E-03	4.72414			
5.00000E-03	4.72273			
6.25632E-03	4.71831			
7.31383E-03	4.71459			
8.58199E-03	4.71013			
1.00705E-02	4.70489			
1.95905E-02	4.6714			
2.00000E-02	4.66996			
2.48051E-02	4.65306			
2.86463E-02	4.63955			
3.40591E-02	4.62051			
3.40892E-02	4.62042			
4.14268E-02	4.59736			
5.03527E-02	4.5693			
6.11500E-02	4.53537			
7.36306E-02	4.49614			
8.43447E-02	4.46246			
9.90013E-02	4.4164			
1.21449E-01	4.34584			
1.35580E-01	4.30143			
1.45000E-01	4.28386			
1.47261E-01	4.29533			
1.48125E-01	4.29972			
1.48750E-01	4.30717			
1.50000E-01	4.34029			
1.51000E-01	4.39401			
1.52000E-01	4.47618			
1.52900E-01	4.51951			
1.53950E-01	4.45752			
1.55000E-01	4.37342			
1.56000E-01	4.3213			
1.58000E-01	4.27118			
1.61250E-01	4.23938			
1.68689E-01	4.211			
1.73615E-01	4.19221			
1.98003E-01	4.12653			
2.00000E-01	4.12116			
2.68140E-01	3.93765			
3.67510E-01	3.69432			
3.84250E-01	3.65721			
4.69316E-01	3.46862			
5.32550E-01	3.34149			
5.69619E-01	3.26697			
6.89352E-01	3.04848			
8.17009E-01	2.84017			
9.44667E-01	2.65353			
1.07539E+00	2.48171			
1.15038E+00	2.39293			
1.19998E+00	2.33422			
1.31834E+00	2.20677			
1.44510E+00	2.08329			
1.59722E+00	1.94953			
1.72250E+00	1.85042			
1.72500E+00	1.85016			
1.73600E+00	1.86241			
1.74500E+00	1.84087			
1.75500E+00	1.82804			
1.98876E+00	1.67721			
2.02500E+00	1.65917			
2.04950E+00	1.6844			
2.05300E+00	1.70212			
2.05600E+00	1.72799			
2.05800E+00	1.75443			
2.06000E+00	1.79204			
2.06150E+00	1.83162			
2.06250E+00	1.86517			
2.06300E+00	1.88395			
2.06400E+00	1.92985			
2.06500E+00	1.98739			
2.06600E+00	2.06028			
2.06700E+00	2.15357			
2.06800E+00	2.27504			
2.06900E+00	2.4348			
2.07000E+00	2.64764			
2.07075E+00	2.85853			
2.07100E+00	2.93337			
2.07175E+00	3.21661			
2.07200E+00	3.31682			
2.07275E+00	3.69128			
2.07300E+00	3.82241			
2.07375E+00	4.29275			
2.07400E+00	4.45381			
2.07500E+00	5.15294			
2.07588E+00	5.68885			
2.07600E+00	5.75395			
2.07625E+00	5.83566			
2.07694E+00	6.01982			
2.07700E+00	6.02671			
2.07719E+00	6.01098			
2.07787E+00	5.89205			
2.07800E+00	5.85964			
2.07825E+00	5.7471			
2.07900E+00	5.36875			
2.08000E+00	4.76695			
2.08100E+00	4.20251			
2.08200E+00	3.7319			
2.08300E+00	3.359			
2.08400E+00	3.06822			
2.08500E+00	2.84174			
2.08600E+00	2.66399			
2.08700E+00	2.52285			
2.08800E+00	2.40932			
2.08900E+00	2.31722			
2.09000E+00	2.2412			
2.09100E+00	2.17799			
2.09200E+00	2.12482			
2.09350E+00	2.06007			
2.09500E+00	2.00755			
2.09700E+00	1.95304			
2.09900E+00	1.91061			
2.10200E+00	1.86255			
2.10400E+00	1.83773			
2.10800E+00	1.79972			
2.11200E+00	1.77219			
2.12000E+00	1.73477			
2.14000E+00	1.68636			
2.16000E+00	1.66113			
2.18000E+00	1.64453			
2.22000E+00	1.62192			
2.28000E+00	1.60042			
2.34000E+00	1.58782			
2.40000E+00	1.58292			
2.46000E+00	1.58662			
2.52000E+00	1.60042			
2.56000E+00	1.61652			
2.60000E+00	1.63952			
2.64000E+00	1.67092			
2.68000E+00	1.71322			
2.71000E+00	1.75491			
2.74000E+00	1.80592			
2.76000E+00	1.84783			
2.78500E+00	1.91204			
2.80000E+00	1.96118			
2.80600E+00	1.99046			
2.80800E+00	2.00734			
2.81000E+00	2.03965			
2.81100E+00	2.07335			
2.81188E+00	2.13231			
2.81200E+00	2.14523			
2.81225E+00	2.18706			
2.81281E+00	2.294			
2.81291E+00	2.31802			
2.81300E+00	2.35611			
2.81309E+00	2.4137			
2.81325E+00	2.53641			
2.81381E+00	3.0065			
2.81391E+00	3.09525			
2.81397E+00	3.16657			
2.81403E+00	3.25229			
2.81413E+00	3.40673			
2.81437E+00	3.87693			
2.81478E+00	4.64912			
2.81484E+00	4.75661			
2.81491E+00	4.84193			
2.81495E+00	4.8799			
2.81498E+00	4.88862			
2.81503E+00	4.87404			
2.81508E+00	4.82753			
2.81512E+00	4.75512			
2.81519E+00	4.63253			
2.81544E+00	4.06696			
2.81581E+00	3.20994			
2.81591E+00	3.01279			
2.81597E+00	2.90173			
2.81602E+00	2.83415			
2.81606E+00	2.7807			
2.81612E+00	2.72782			
2.81622E+00	2.67142			
2.81687E+00	2.3528			
2.81700E+00	2.30505			
2.81713E+00	2.27564			
2.81775E+00	2.19159			
2.81800E+00	2.16243			
2.81850E+00	2.13396			
2.81900E+00	2.1102			
2.82000E+00	2.08694			
2.82200E+00	2.07002			
2.82400E+00	2.06745			
2.82950E+00	2.08146			
2.83500E+00	2.10295			
2.84500E+00	2.15225			
2.85500E+00	2.21025			
2.86500E+00	2.27746			
2.87500E+00	2.35557			
2.88500E+00	2.44708			
2.89500E+00	2.55489			
2.90500E+00	2.6819			
2.91500E+00	2.82968			
2.93200E+00	3.10661			
2.93600E+00	3.16316			
2.94000E+00	3.20677			
2.94400E+00	3.22936			
2.94800E+00	3.22074			
2.95200E+00	3.17013			
2.95600E+00	3.06798			
2.96000E+00	2.91003			
2.96400E+00	2.7009			
2.96800E+00	2.45555			
2.97300E+00	2.13346			
2.97600E+00	1.94612			
2.98000E+00	1.72394			
2.98400E+00	1.53996			
2.98800E+00	1.39663			
2.99200E+00	1.29117			
2.99600E+00	1.2179			
3.00000E+00	1.17076			
3.01000E+00	1.12979			
3.02000E+00	1.15043			
3.03000E+00	1.19766			
3.06000E+00	1.37249			
3.08000E+00	1.48248			
3.10000E+00	1.58259			
3.12000E+00	1.67439			
3.15000E+00	1.80016			
3.18000E+00	1.91541			
3.20000E+00	1.99039			
3.24000E+00	2.12849			
3.28000E+00	2.25489			
3.32000E+00	2.36779			
3.36000E+00	2.46439			
3.39000E+00	2.52391			
3.42000E+00	2.57289			
3.45000E+00	2.60831			
3.48000E+00	2.63239			
3.51000E+00	2.64261			
3.52000E+00	2.64419			
3.56000E+00	2.63528			
3.60000E+00	2.60808			
3.64000E+00	2.56539			
3.70000E+00	2.47949			
3.76000E+00	2.37619			
3.94000E+00	2.03671			
4.00000E+00	1.93211			
4.04000E+00	1.87142			
4.07000E+00	1.83502			
4.09000E+00	1.81802			
4.11000E+00	1.80982			
4.12500E+00	1.8124			
4.14000E+00	1.82333			
4.15000E+00	1.83723			
4.16000E+00	1.85724			
4.17000E+00	1.88394			
4.18000E+00	1.91754			
4.19000E+00	1.95793			
4.20000E+00	2.00432			
4.23000E+00	2.15586			
4.24000E+00	2.19875			
4.25000E+00	2.23183			
4.26000E+00	2.25273			
4.27000E+00	2.26083			
4.28000E+00	2.25674			
4.29000E+00	2.24216			
4.30000E+00	2.21946			
4.32000E+00	2.15848			
4.37000E+00	1.98542			
4.40000E+00	1.89332			
4.43000E+00	1.81445			
4.46000E+00	1.74541			
4.50000E+00	1.66771			
4.54000E+00	1.60151			
4.58000E+00	1.54381			
4.64000E+00	1.46881			
4.70000E+00	1.4036			
4.81200E+00	1.29641			
4.85000E+00	1.27051			
4.90000E+00	1.25188			
4.91941E+00	1.27547			
4.92000E+00	1.27976			
4.93000E+00	1.35333			
4.93423E+00	1.38391			
4.93436E+00	1.38932			
4.93447E+00	1.4007			
4.93456E+00	1.42063			
4.93469E+00	1.45858			
4.93538E+00	1.71346			
4.93550E+00	1.7535			
4.93565E+00	1.79249			
4.93647E+00	1.96423			
4.93663E+00	1.98993			
4.93679E+00	2.00498			
4.93692E+00	2.00756			
4.93827E+00	1.9884			
4.93845E+00	1.97978			
4.93862E+00	1.95757			
4.93941E+00	1.8034			
4.93962E+00	1.77488			
4.94000E+00	1.74118			
4.94089E+00	1.66325			
4.94308E+00	1.47487			
4.94335E+00	1.4602			
4.94810E+00	1.32682			
4.95000E+00	1.31309			
4.95460E+00	1.28067			
4.95840E+00	1.25952			
4.98000E+00	1.22417			
5.00000E+00	1.18407			
5.00100E+00	1.19466			
5.03000E+00	1.17728			
5.05300E+00	1.17247			
5.10000E+00	1.1511			
5.12000E+00	1.11265			
5.15000E+00	1.13563			
5.18000E+00	1.12467			
5.20000E+00	1.10783			
5.23000E+00	1.09818			
5.28000E+00	1.06491			
5.30000E+00	1.05807			
5.33000E+00	1.0459			
5.33500E+00	1.07873			
5.34000E+00	1.0292			
5.34034E+00	1.03659			
5.35977E+00	1.5722			
5.36000E+00	1.58446			
5.36002E+00	1.58576			
5.36028E+00	1.61322			
5.36183E+00	1.8033			
5.36200E+00	1.81954			
5.36225E+00	1.8304			
5.36800E+00	1.95059			
5.37000E+00	1.98986			
5.37100E+00	1.97093			
5.37800E+00	1.75721			
5.38000E+00	1.68061			
5.39000E+00	1.46318			
5.40000E+00	1.32809			
5.41000E+00	1.2613			
5.42000E+00	1.22783			
5.43000E+00	1.19911			
5.44000E+00	1.19092			
5.46000E+00	1.14579			
5.47474E+00	1.13592			
5.50000E+00	1.11901			
5.55000E+00	1.1014			
5.55300E+00	1.11068			
5.60000E+00	1.0888			
5.64109E+00	1.0809			
5.65000E+00	1.07918			
5.70000E+00	1.06821			
5.79737E+00	1.0785			
5.80000E+00	1.07878			
5.90000E+00	1.0797			
6.00000E+00	1.09749			
6.05000E+00	1.10416			
6.05300E+00	1.10716			
6.05469E+00	1.10858			
6.12500E+00	1.13322			
6.16000E+00	1.16234			
6.17400E+00	1.18935			
6.18000E+00	1.19666			
6.18120E+00	1.19792			
6.19000E+00	1.21194			
6.20000E+00	1.22795			
6.21000E+00	1.27445			
6.22000E+00	1.29339			
6.23000E+00	1.34528			
6.24000E+00	1.42874			
6.25000E+00	1.5043			
6.27284E+00	2.09889			
6.28500E+00	2.41558			
6.29500E+00	2.7079			
6.30297E+00	2.59835			
6.30300E+00	2.59726			
6.31000E+00	2.36002			
6.32000E+00	1.93631			
6.33000E+00	1.70342			
6.34000E+00	1.52143			
6.35000E+00	1.4827			
6.36000E+00	1.59933			
6.37000E+00	1.40684			
6.39000E+00	1.17885			
6.40000E+00	1.15483			
6.41000E+00	1.11771			
6.42000E+00	1.09023			
6.43000E+00	1.10269			
6.44000E+00	1.07971			
6.45000E+00	1.07972			
6.47000E+00	1.06021			
6.49000E+00	1.05749			
6.51000E+00	1.03715			
6.54000E+00	0.971922			
6.55300E+00	0.895221			
6.55650E+00	0.872367			
6.55808E+00	0.861639			
6.56000E+00	0.848603			
6.57000E+00	0.76965			
6.58000E+00	0.73244			
6.59000E+00	0.743247			
6.60000E+00	0.737961			
6.62000E+00	0.78168			
6.64000E+00	0.7643			
6.65575E+00	0.914328			
6.65800E+00	0.934768			
6.66500E+00	0.863839			
6.66512E+00	0.862857			
6.67000E+00	0.849127			
6.68000E+00	0.842799			
6.70000E+00	0.836562			
6.75000E+00	0.815812			
6.77544E+00	0.808204			
6.81000E+00	0.797868			
6.92000E+00	0.769873			
7.00000E+00	0.745061			
7.05300E+00	0.749061			
7.10000E+00	0.748812			
7.14000E+00	0.768073			
7.18000E+00	0.797697			
7.20000E+00	0.844597			
7.22000E+00	0.878249			
7.22250E+00	0.882705			
7.22500E+00	0.887908			
7.25000E+00	0.976755			
7.27000E+00	1.06913			
7.27371E+00	1.09497			
7.28000E+00	1.13876			
7.34000E+00	1.64463			
7.35000E+00	1.75542			
7.36000E+00	1.75582			
7.37000E+00	1.80815			
7.40000E+00	1.78241			
7.40125E+00	1.7807			
7.42000E+00	1.77077			
7.47000E+00	1.75561			
7.52900E+00	1.75387			
7.54200E+00	1.73464			
7.55300E+00	1.72516			
7.56985E+00	1.7163			
7.59400E+00	1.70359			
7.62000E+00	1.70102			
7.64141E+00	1.71632			
7.64937E+00	1.72202			
7.65000E+00	1.72412			
7.66113E+00	1.76166			
7.66700E+00	1.78227			
7.68000E+00	1.80887			
7.69800E+00	1.92701			
7.70000E+00	1.93296			
7.72500E+00	2.22517			
7.74500E+00	2.42461			
7.75000E+00	2.39206			
7.76700E+00	2.29275			
7.77000E+00	2.27294			
7.78900E+00	2.14334			
7.81000E+00	2.05393			
7.81900E+00	2.05874			
7.86000E+00	2.00169			
7.88640E+00	1.96981			
7.88800E+00	1.94958			
7.89700E+00	1.9456			
7.93000E+00	1.91258			
7.93600E+00	1.89157			
8.00000E+00	1.85288			
8.00500E+00	1.86298			
8.01000E+00	1.81762			
8.01400E+00	1.85424			
8.04400E+00	1.84333			
8.05300E+00	1.88236			
8.07900E+00	1.88449			
8.08000E+00	1.87647			
8.10000E+00	1.88706			
8.10002E+00	1.88712			
8.10100E+00	1.90252			
8.10500E+00	1.88788			
8.10900E+00	1.86758			
8.12000E+00	1.84996			
8.13100E+00	1.81399			
8.13800E+00	1.79836			
8.16000E+00	1.71473			
8.16600E+00	1.66995			
8.17009E+00	1.65153			
8.20000E+00	1.517			
8.21000E+00	1.47118			
8.24000E+00	1.39995			
8.28000E+00	1.29972			
8.29580E+00	1.26339			
8.29620E+00	1.2596			
8.32000E+00	1.23409			
8.33000E+00	1.21342			
8.40000E+00	1.13701			
8.42600E+00	1.13551			
8.44800E+00	1.11798			
8.45000E+00	1.10222			
8.47238E+00	1.10577			
8.48000E+00	1.10698			
8.49950E+00	1.08283			
8.50000E+00	1.07611			
8.52000E+00	1.08331			
8.55300E+00	1.06644			
8.60000E+00	1.07876			
8.60375E+00	1.0795			
8.61100E+00	1.07935			
8.66400E+00	1.06609			
8.67775E+00	1.06638			
8.70000E+00	1.06811			
8.70800E+00	1.06286			
8.72474E+00	1.06232			
8.75000E+00	1.0615			
8.76800E+00	1.06776			
8.80000E+00	1.07195			
8.83300E+00	1.07637			
8.85000E+00	1.07726			
8.88500E+00	1.09753			
8.92000E+00	1.08644			
8.94000E+00	1.10397			
8.98000E+00	1.13139			
9.00000E+00	1.1328			
9.00500E+00	1.15275			
9.02000E+00	1.15464			
9.03000E+00	1.16729			
9.03094E+00	1.16822			
9.04500E+00	1.17491			
9.05300E+00	1.19752			
9.06700E+00	1.19699			
9.08000E+00	1.22352			
9.14900E+00	1.28881			
9.16300E+00	1.3073			
9.18000E+00	1.30213			
9.20650E+00	1.32155			
9.21900E+00	1.32961			
9.25000E+00	1.32597			
9.25400E+00	1.33918			
9.30000E+00	1.31979			
9.36000E+00	1.29298			
9.40000E+00	1.27011			
9.45000E+00	1.253			
9.50000E+00	1.23529			
9.52200E+00	1.23498			
9.55300E+00	1.22365			
9.55888E+00	1.22899			
9.56000E+00	1.22935			
9.59000E+00	1.22159			
9.60000E+00	1.21931			
9.63000E+00	1.22293			
9.64000E+00	1.23143			
9.67800E+00	1.225			
9.68000E+00	1.22409			
9.69200E+00	1.22603			
9.70000E+00	1.23612			
9.72600E+00	1.23094			
9.74000E+00	1.24591			
9.75000E+00	1.22667			
9.80000E+00	1.22937			
9.80808E+00	1.22481			
9.82100E+00	1.21752			
9.83000E+00	1.21875			
9.86800E+00	1.19827			
9.90000E+00	1.18222			
9.91700E+00	1.18295			
9.92100E+00	1.17322			
1.00000E+01	1.17299			
1.00500E+01	1.14744			
1.00530E+01	1.13888			
1.01700E+01	1.11829			
1.02500E+01	1.11221			
1.02842E+01	1.11181			
1.03000E+01	1.11162			
1.03720E+01	1.13829			
1.03750E+01	1.13855			
1.04000E+01	1.14571			
1.04480E+01	1.16153			
1.04780E+01	1.17929			
1.05000E+01	1.19565			
1.05060E+01	1.19655			
1.05098E+01	1.19851			
1.05360E+01	1.21205			
1.05500E+01	1.20991			
1.05530E+01	1.22214			
1.06200E+01	1.25461			
1.06900E+01	1.29848			
1.07000E+01	1.29885			
1.07500E+01	1.33139			
1.08000E+01	1.35521			
1.08300E+01	1.37426			
1.09000E+01	1.41109			
1.09400E+01	1.42013			
1.10000E+01	1.40836			
1.10040E+01	1.40065			
1.10530E+01	1.40117			
1.10960E+01	1.38902			
1.11000E+01	1.39339			
1.11006E+01	1.39397			
1.11700E+01	1.40116			
1.12350E+01	1.38952			
1.12500E+01	1.38787			
1.13000E+01	1.3832			
1.13152E+01	1.38171			
1.14000E+01	1.37339			
1.15000E+01	1.35649			
1.15530E+01	1.34502			
1.16813E+01	1.33848			
1.17080E+01	1.33712			
1.17500E+01	1.35434			
1.17510E+01	1.34965			
1.17991E+01	1.35902			
1.18000E+01	1.35944			
1.18640E+01	1.393			
1.19000E+01	1.41262			
1.19090E+01	1.40817			
1.19170E+01	1.42155			
1.20000E+01	1.42643			
1.20500E+01	1.44468			
1.20530E+01	1.44988			
1.20880E+01	1.44911			
1.21000E+01	1.45155			
1.21930E+01	1.38921			
1.21960E+01	1.38764			
1.22240E+01	1.37501			
1.22500E+01	1.36749			
1.23000E+01	1.34531			
1.23289E+01	1.33941			
1.24000E+01	1.32492			
1.25000E+01	1.33076			
1.25530E+01	1.34057			
1.25741E+01	1.3442			
1.26156E+01	1.35125			
1.26495E+01	1.35702			
1.27000E+01	1.36647			
1.27380E+01	1.36701			
1.27920E+01	1.38757			
1.29000E+01	1.40199			
1.29900E+01	1.42344			
1.30000E+01	1.42096			
1.30530E+01	1.41575			
1.30550E+01	1.4156			
1.30581E+01	1.41564			
1.31200E+01	1.41637			
1.32500E+01	1.40734			
1.32800E+01	1.39501			
1.32874E+01	1.39585			
1.33000E+01	1.39726			
1.35000E+01	1.39272			
1.35208E+01	1.39648			
1.35400E+01	1.39995			
1.35530E+01	1.39963			
1.35700E+01	1.40005			
1.35870E+01	1.40044			
1.36460E+01	1.38597			
1.37000E+01	1.38117			
1.37583E+01	1.37488			
1.37670E+01	1.37394			
1.38220E+01	1.34868			
1.38300E+01	1.34807			
1.39650E+01	1.33051			
1.40000E+01	1.30233			
1.40530E+01	1.31474			
1.40682E+01	1.31706			
1.41414E+01	1.32497			
1.41820E+01	1.32936			
1.42500E+01	1.33424			
1.43249E+01	1.32529			
1.43640E+01	1.32062			
1.43767E+01	1.31907			
1.44190E+01	1.31219			
1.44720E+01	1.31311			
1.44720E+01	1.31312			
1.44860E+01	1.31697			
1.45000E+01	1.32003			
1.45243E+01	1.32611			
1.45530E+01	1.33332			
1.45595E+01	1.33437			
1.45644E+01	1.33458			
1.45660E+01	1.33464			
1.46530E+01	1.36319			
1.46940E+01	1.37934			
1.47500E+01	1.38068			
1.47670E+01	1.37757			
1.47806E+01	1.37879			
1.48070E+01	1.38117			
1.48095E+01	1.38147			
1.48370E+01	1.38488			
1.48755E+01	1.38944			
1.48880E+01	1.39033			
1.48920E+01	1.39646			
1.49090E+01	1.39922			
1.49270E+01	1.39747			
1.49620E+01	1.39678			
1.49960E+01	1.4034			
1.50000E+01	1.39761			
1.50450E+01	1.41095			
1.50530E+01	1.4137			
1.50930E+01	1.42534			
1.52247E+01	1.43199			
1.52480E+01	1.43317			
1.52555E+01	1.43387			
1.52630E+01	1.43479			
1.54480E+01	1.45434			
1.54770E+01	1.45587			
1.54869E+01	1.45661			
1.55000E+01	1.45758			
1.55530E+01	1.46347			
1.56682E+01	1.47458			
1.57310E+01	1.48064			
1.59443E+01	1.50487			
1.59595E+01	1.5066			
1.59660E+01	1.50751			
1.59700E+01	1.5135			
1.59900E+01	1.51003			
1.60000E+01	1.51548			
1.60530E+01	1.50363			
1.60640E+01	1.50192			
1.60680E+01	1.50165			
1.62560E+01	1.46326			
1.63081E+01	1.44732			
1.63470E+01	1.43542			
1.64430E+01	1.43819			
1.65000E+01	1.43284			
1.65320E+01	1.42899			
1.65530E+01	1.42588			
1.66505E+01	1.41394			
1.66950E+01	1.40849			
1.68200E+01	1.39977			
1.68240E+01	1.39938			
1.69740E+01	1.39568			
1.70000E+01	1.39746			
1.70530E+01	1.40215			
1.70615E+01	1.40314			
1.70740E+01	1.40585			
1.71305E+01	1.399			
1.71380E+01	1.39869			
1.72435E+01	1.39483			
1.72980E+01	1.39467			
1.73000E+01	1.39467			
1.73010E+01	1.40482			
1.73914E+01	1.40232			
1.74310E+01	1.40122			
1.74670E+01	1.40112			
1.75000E+01	1.40605			
1.75530E+01	1.41171			
1.76160E+01	1.4165			
1.76870E+01	1.41765			
1.79000E+01	1.43208			
1.79010E+01	1.43424			
1.80000E+01	1.44302			
1.80530E+01	1.45268			
1.80870E+01	1.44677			
1.81580E+01	1.46791			
1.82730E+01	1.46648			
1.83090E+01	1.46495			
1.84600E+01	1.46167			
1.84747E+01	1.4646			
1.85000E+01	1.46965			
1.85160E+01	1.47263			
1.85200E+01	1.47329			
1.86320E+01	1.48312			
1.87000E+01	1.48714			
1.88330E+01	1.48517			
1.90000E+01	1.48756			
1.90300E+01	1.48805			
1.90340E+01	1.48827			
1.90530E+01	1.48817			
1.91850E+01	1.49067			
1.93460E+01	1.49368			
1.95000E+01	1.49812			
1.95110E+01	1.49813			
1.95530E+01	1.49921			
1.95581E+01	1.49933			
1.96000E+01	1.5003			
1.96610E+01	1.50158			
1.97940E+01	1.50424			
1.98920E+01	1.50583			
1.99987E+01	1.50699			
1.99994E+01	1.50749			
1.99994E+01	1.5075			
1.99997E+01	1.51167			
1.99997E+01	1.51177			
2.00000E+01	1.52449			
2.00000E+01	1.48961			
2.00003E+01	1.50092			
2.00003E+01	1.50145			
2.00006E+01	1.50574			
2.00006E+01	1.50616			
2.00012E+01	1.50694			
2.02955E+01	1.49241			
2.10000E+01	1.42601			
2.20000E+01	1.403			
2.30000E+01	1.404			
2.40000E+01	1.41255			
2.42789E+01	1.40754			
2.43107E+01	1.40693			
2.50000E+01	1.38627			
2.63668E+01	1.36704			
2.70587E+01	1.35495			
2.72495E+01	1.35188			
3.10000E+01	1.27615			
3.14374E+01	1.26763			
3.45184E+01	1.21189			
3.62539E+01	1.18176			
3.80000E+01	1.14873			
4.15784E+01	1.08324			
4.56349E+01	1.01419			
4.60000E+01	1.00837			
4.96913E+01	0.951198			
5.20000E+01	0.917486			
5.33739E+01	0.89775			
5.74021E+01	0.844324			
5.90000E+01	0.824659			
6.14303E+01	0.795408			
6.54585E+01	0.750565			
6.94867E+01	0.708979			
7.30000E+01	0.675108			
7.45220E+01	0.660382			
7.80000E+01	0.628891			
7.85502E+01	0.624191			
8.20000E+01	0.596757			
8.50000E+01	0.574074			
8.63869E+01	0.564213			
8.80000E+01	0.552857			
9.00000E+01	0.53968			
9.16419E+01	0.529853			
9.20000E+01	0.527564			
9.40000E+01	0.516061			
9.80000E+01	0.495138			
9.96983E+01	0.486502			
1.00000E+02	0.485072			
1.02000E+02	0.476053			
1.04734E+02	0.464544			
1.06000E+02	0.459721			
1.06748E+02	0.456643			
1.08000E+02	0.451793			
1.10000E+02	0.44388			
1.12000E+02	0.436164			
1.18832E+02	0.413696			
1.20000E+02	0.409592			
1.24000E+02	0.39603			
1.28000E+02	0.383516			
1.32000E+02	0.373048			
1.36000E+02	0.363515			
1.40988E+02	0.35275			
1.45016E+02	0.344669			
1.49000E+02	0.337174			
1.50000E+02	0.335371